File: Al.csv
2Theta,Intensity (counts)
30,62
30.1,62
30.2,76
30.3,73
30.4,71
30.5,62
30.6,74
30.7,61
30.8,77
30.9,67
31,69
31.1,82
31.2,65
31.3,74
31.4,62
31.5,67
31.6,52
31.7,85
31.8,87
31.9,75
32,91
32.1,82
32.2,85
32.3,95
32.4,89
32.5,117
32.6,119
32.7,112
32.8,116
32.9,101
33,106
33.1,96
33.2,101
33.3,98
33.4,102
33.5,95
33.6,93
33.7,96
33.8,75
33.9,65
34,81
34.1,82
34.2,91
34.3,65
34.4,74
34.5,54
34.6,59
34.7,81
34.8,83
34.9,67
35,66
35.1,62
35.2,49
35.3,65
35.4,88
35.5,77
35.6,52
35.7,71
35.8,77
35.9,75
36,70
36.1,71
36.2,68
36.3,68
36.4,74
36.5,73
36.6,65
36.7,71
36.8,60
36.9,62
37,60
37.1,63
37.2,64
37.3,69
37.4,65
37.5,69
37.6,67
37.7,75
37.8,83
37.9,69
38,98
38.1,91
38.2,101
38.3,134
38.4,194
38.5,356
38.6,796
38.7,744
38.8,395
38.9,140
39,131
39.1,115
39.2,120
39.3,102
39.4,88
39.5,105
39.6,106
39.7,107
39.8,133
39.9,106
40,115
40.1,105
40.2,107
40.3,106
40.4,136
40.5,98
40.6,104
40.7,94
40.8,85
40.9,70
41,90
41.1,63
41.2,91
41.3,61
41.4,58
41.5,56
41.6,52
41.7,59
41.8,54
41.9,53
42,62
42.1,69
42.2,65
42.3,64
42.4,44
42.5,48
42.6,71
42.7,47
42.8,60
42.9,66
43,54
43.1,70
43.2,56
43.3,55
43.4,50
43.5,65
43.6,48
43.7,69
43.8,50
43.9,39
44,62
44.1,47
44.2,57
44.3,55
44.4,56
44.5,74
44.6,80
44.7,158
44.8,310
44.9,551
45,432
45.1,182
45.2,89
45.3,55
45.4,71
45.5,67
45.6,74
45.7,59
45.8,61
45.9,69
46,72
46.1,89
46.2,66
46.3,71
46.4,65
46.5,80
46.6,55
46.7,81
46.8,81
46.9,71
47,70
47.1,68
47.2,83
47.3,65
47.4,62
47.5,67
47.6,67
47.7,59
47.8,56
47.9,55
48,57
48.1,54
48.2,51
48.3,56
48.4,42
48.5,50
48.6,56
48.7,54
48.8,54
48.9,46
49,42
49.1,51
49.2,52
49.3,47
49.4,53
49.5,51
49.6,43
49.7,48
49.8,45
49.9,52
50,42
50.1,55
50.2,59
50.3,48
50.4,55
50.5,56
50.6,34
50.7,63
50.8,57
50.9,47
51,54
51.1,72
51.2,56
51.3,60
51.4,63
51.5,58
51.6,62
51.7,57
51.8,73
51.9,60
52,59
52.1,63
52.2,70
52.3,69
52.4,47
52.5,48
52.6,58
52.7,67
52.8,54
52.9,68
53,68
53.1,58
53.2,41
53.3,62
53.4,64
53.5,72
53.6,57
53.7,54
53.8,63
53.9,61
54,56
54.1,41
54.2,60
54.3,51
54.4,50
54.5,43
54.6,61
54.7,51
54.8,43
54.9,52
55,57
55.1,40
55.2,35
55.3,47
55.4,47
55.5,33
55.6,55
55.7,50
55.8,40
55.9,39
56,36
56.1,44
56.2,41
56.3,54
56.4,36
56.5,46
56.6,47
56.7,49
56.8,55
56.9,40
57,47
57.1,38
57.2,40
57.3,36
57.4,48
57.5,53
57.6,45
57.7,55
57.8,49
57.9,55
58,47
58.1,58
58.2,48
58.3,64
58.4,58
58.5,57
58.6,52
58.7,50
58.8,38
58.9,41
59,36
59.1,44
59.2,55
59.3,48
59.4,44
59.5,52
59.6,44
59.7,45
59.8,43
59.9,47
60,52
60.1,54
60.2,47
60.3,38
60.4,50
60.5,39
60.6,49
60.7,44
60.8,52
60.9,47
61,50
61.1,40
61.2,37
61.3,43
61.4,41
61.5,49
61.6,38
61.7,42
61.8,44
61.9,36
62,45
62.1,39
62.2,50
62.3,38
62.4,31
62.5,56
62.6,28
62.7,52
62.8,37
62.9,48
63,41
63.1,41
63.2,48
63.3,37
63.4,35
63.5,46
63.6,44
63.7,28
63.8,48
63.9,50
64,39
64.1,41
64.2,46
64.3,54
64.4,44
64.5,40
64.6,40
64.7,41
64.8,47
64.9,47
65,58
65.1,122
65.2,257
65.3,253
65.4,210
65.5,113
65.6,67
65.7,58
65.8,37
65.9,45
66,58
66.1,50
66.2,33
66.3,40
66.4,34
66.5,50
66.6,45
66.7,46
66.8,49
66.9,50
67,47
67.1,45
67.2,43
67.3,55
67.4,39
67.5,42
67.6,61
67.7,52
67.8,52
67.9,48
68,44
68.1,43
68.2,56
68.3,49
68.4,49
68.5,53
68.6,54
68.7,47
68.8,41
68.9,59
69,45
69.1,46
69.2,32
69.3,38
69.4,41
69.5,47
69.6,48
69.7,47
69.8,30
69.9,38
70,42
70.1,45
70.2,36
70.3,35
70.4,38
70.5,44
70.6,40
70.7,41
70.8,45
70.9,37
71,40
71.1,48
71.2,34
71.3,37
71.4,39
71.5,39
71.6,39
71.7,40
71.8,37
71.9,53
72,35
72.1,32
72.2,45
72.3,38
72.4,38
72.5,43
72.6,44
72.7,29
72.8,50
72.9,34
73,37
73.1,34
73.2,43
73.3,42
73.4,32
73.5,36
73.6,39
73.7,46
73.8,41
73.9,46
74,47
74.1,34
74.2,56
74.3,46
74.4,36
74.5,52
74.6,37
74.7,33
74.8,39
74.9,45
75,45
75.1,45
75.2,33
75.3,36
75.4,37
75.5,38
75.6,31
75.7,50
75.8,26
75.9,56
76,42
76.1,45
76.2,37
76.3,39
76.4,33
76.5,37
76.6,50
76.7,41
76.8,42
76.9,35
77,43
77.1,47
77.2,35
77.3,40
77.4,33
77.5,47
77.6,42
77.7,50
77.8,45
77.9,42
78,40
78.1,46
78.2,95
78.3,258
78.4,275
78.5,208
78.6,198
78.7,111
78.8,47
78.9,49
79,45
79.1,47
79.2,51
79.3,48
79.4,45
79.5,44
79.6,43
79.7,47
79.8,41
79.9,36
80,36
80.1,44
80.2,42
80.3,54
80.4,50
80.5,44
80.6,40
80.7,42
80.8,51
80.9,56
81,44
81.1,52
81.2,46
81.3,55
81.4,58
81.5,46
81.6,44
81.7,49
81.8,53
81.9,42
82,49
82.1,55
82.2,56
82.3,51
82.4,70
82.5,89
82.6,108
82.7,75
82.8,82
82.9,83
83,52
83.1,55
83.2,49
83.3,38
83.4,45
83.5,39
83.6,51
83.7,43
83.8,33
83.9,41
84,41
84.1,53
84.2,33
84.3,41
84.4,38
84.5,38
84.6,34
84.7,42
84.8,33
84.9,38
85,31
85.1,41
85.2,43
85.3,49
85.4,40
85.5,44
85.6,51
85.7,36
85.8,46
85.9,51
86,40
86.1,39
86.2,37
86.3,44
86.4,49
86.5,45
86.6,43
86.7,36
86.8,40
86.9,42
87,37
87.1,47
87.2,45
87.3,35
87.4,26
87.5,35
87.6,44
87.7,31
87.8,29
87.9,28
88,39
88.1,32
88.2,35
88.3,40
88.4,37
88.5,41
88.6,41
88.7,46
88.8,39
88.9,36
89,43
89.1,22
89.2,30
89.3,37
89.4,33
89.5,33
89.6,42
89.7,43
89.8,36
89.9,39
90,37
90.1,37
90.2,27
90.3,40
90.4,39
90.5,50
90.6,34
90.7,34
90.8,46
90.9,43
91,39
91.1,38
91.2,35
91.3,34
91.4,41
91.5,33
91.6,42
91.7,40
91.8,37
91.9,29
92,29
92.1,37
92.2,40
92.3,40
92.4,31
92.5,39
92.6,35
92.7,32
92.8,32
92.9,27
93,39
93.1,46
93.2,38
93.3,32
93.4,41
93.5,49
93.6,35
93.7,49
93.8,34
93.9,38
94,43
94.1,37
94.2,33
94.3,39
94.4,26
94.5,25
94.6,38
94.7,35
94.8,31
94.9,46
95,33
95.1,36
95.2,34
95.3,37
95.4,43
95.5,40
95.6,54
95.7,38
95.8,41
95.9,36
96,37
96.1,58
96.2,39
96.3,47
96.4,46
96.5,31
96.6,41
96.7,47
96.8,41
96.9,45
97,39
97.1,47
97.2,39
97.3,41
97.4,34
97.5,48
97.6,42
97.7,44
97.8,42
97.9,41
98,46
98.1,39
98.2,39
98.3,38
98.4,36
98.5,43
98.6,45
98.7,43
98.8,39
98.9,48
99,36
99.1,59
99.2,53
99.3,50
99.4,47
99.5,62
99.6,57
99.7,40
99.8,45
99.9,41
100,38
100.1,48
100.2,46
100.3,29
100.4,30
100.5,48
100.6,41
100.7,39
100.8,47
100.9,34
101,45
101.1,46
101.2,43
101.3,43
101.4,54
101.5,37
101.6,37
101.7,38
101.8,53
101.9,37
102,38
102.1,37
102.2,45
102.3,51
102.4,42
102.5,37
102.6,39
102.7,37
102.8,42
102.9,39
103,46
103.1,39
103.2,31
103.3,40
103.4,35
103.5,43
103.6,35
103.7,46
103.8,49
103.9,46
104,39
104.1,36
104.2,47
104.3,43
104.4,63
104.5,51
104.6,42
104.7,40
104.8,30
104.9,48
105,41
105.1,35
105.2,51
105.3,44
105.4,38
105.5,37
105.6,45
105.7,39
105.8,51
105.9,64
106,55
106.1,45
106.2,44
106.3,42
106.4,49
106.5,45
106.6,44
106.7,41
106.8,38
106.9,36
107,41
107.1,43
107.2,54
107.3,31
107.4,46
107.5,31
107.6,38
107.7,48
107.8,45
107.9,41
108,42
108.1,47
108.2,39
108.3,47
108.4,41
108.5,42
108.6,35
108.7,50
108.8,50
108.9,34
109,48
109.1,42
109.2,59
109.3,45
109.4,68
109.5,45
109.6,44
109.7,53
109.8,45
109.9,57
110,57
110.1,50
110.2,44
110.3,51
110.4,50
110.5,43
110.6,34
110.7,47
110.8,55
110.9,50
111,45
111.1,56
111.2,37
111.3,41
111.4,44
111.5,56
111.6,43
111.7,53
111.8,56
111.9,81
112,122
112.1,109
112.2,100
112.3,83
112.4,86
112.5,99
112.6,89
112.7,75
112.8,54
112.9,50
113,58
113.1,47
113.2,54
113.3,55
113.4,40
113.5,45
113.6,33
113.7,42
113.8,44
113.9,49
114,45
114.1,58
114.2,49
114.3,57
114.4,46
114.5,47
114.6,51
114.7,37
114.8,60
114.9,51
115,39
115.1,54
115.2,46
115.3,58
115.4,48
115.5,61
115.6,43
115.7,55
115.8,48
115.9,57
116,49
116.1,49
116.2,60
116.3,58
116.4,87
116.5,122
116.6,118
116.7,98
116.8,85
116.9,102
117,95
117.1,102
117.2,71
117.3,63
117.4,63
117.5,55
117.6,64
117.7,53
117.8,43
117.9,64
118,41
118.1,43
118.2,48
118.3,58
118.4,37
118.5,41
118.6,41
118.7,51
118.8,48
118.9,47
119,51
119.1,65
119.2,53
119.3,51
119.4,64
119.5,50
119.6,50
119.7,52
119.8,38
119.9,60
120,56