File: CsCl.csv
2Theta,Intensity (counts)
30,109
30.1,118
30.2,131
30.3,174
30.4,232
30.5,247
30.6,173
30.7,163
30.8,150
30.9,116
31,114
31.1,116
31.2,129
31.3,115
31.4,101
31.5,120
31.6,101
31.7,116
31.8,108
31.9,126
32,110
32.1,93
32.2,103
32.3,93
32.4,94
32.5,109
32.6,93
32.7,89
32.8,90
32.9,87
33,82
33.1,93
33.2,105
33.3,84
33.4,95
33.5,90
33.6,86
33.7,74
33.8,98
33.9,109
34,79
34.1,87
34.2,83
34.3,73
34.4,84
34.5,86
34.6,91
34.7,70
34.8,69
34.9,77
35,69
35.1,77
35.2,92
35.3,80
35.4,70
35.5,81
35.6,87
35.7,80
35.8,75
35.9,68
36,75
36.1,83
36.2,70
36.3,88
36.4,80
36.5,78
36.6,69
36.7,72
36.8,75
36.9,66
37,66
37.1,71
37.2,57
37.3,69
37.4,66
37.5,77
37.6,119
37.7,66
37.8,69
37.9,52
38,58
38.1,58
38.2,60
38.3,63
38.4,61
38.5,60
38.6,63
38.7,59
38.8,63
38.9,61
39,60
39.1,70
39.2,55
39.3,62
39.4,61
39.5,71
39.6,50
39.7,51
39.8,53
39.9,47
40,63
40.1,58
40.2,64
40.3,50
40.4,49
40.5,66
40.6,49
40.7,48
40.8,71
40.9,50
41,61
41.1,53
41.2,46
41.3,50
41.4,41
41.5,53
41.6,51
41.7,61
41.8,44
41.9,64
42,47
42.1,58
42.2,65
42.3,44
42.4,46
42.5,46
42.6,53
42.7,54
42.8,60
42.9,43
43,60
43.1,47
43.2,51
43.3,44
43.4,50
43.5,64
43.6,62
43.7,67
43.8,62
43.9,52
44,47
44.1,41
44.2,54
44.3,39
44.4,46
44.5,48
44.6,47
44.7,35
44.8,39
44.9,48
45,50
45.1,46
45.2,39
45.3,49
45.4,57
45.5,52
45.6,46
45.7,29
45.8,38
45.9,44
46,37
46.1,42
46.2,39
46.3,50
46.4,39
46.5,53
46.6,39
46.7,38
46.8,40
46.9,32
47,37
47.1,29
47.2,46
47.3,45
47.4,40
47.5,35
47.6,50
47.7,43
47.8,37
47.9,40
48,43
48.1,44
48.2,31
48.3,40
48.4,36
48.5,35
48.6,46
48.7,40
48.8,39
48.9,46
49,50
49.1,135
49.2,137
49.3,65
49.4,68
49.5,42
49.6,28
49.7,38
49.8,31
49.9,41
50,34
50.1,32
50.2,28
50.3,37
50.4,43
50.5,46
50.6,25
50.7,43
50.8,41
50.9,41
51,38
51.1,42
51.2,37
51.3,31
51.4,44
51.5,40
51.6,50
51.7,26
51.8,39
51.9,36
52,27
52.1,40
52.2,39
52.3,30
52.4,40
52.5,28
52.6,34
52.7,39
52.8,32
52.9,31
53,30
53.1,28
53.2,32
53.3,36
53.4,46
53.5,32
53.6,32
53.7,36
53.8,37
53.9,31
54,43
54.1,41
54.2,99
54.3,111
54.4,86
54.5,56
54.6,40
54.7,41
54.8,30
54.9,24
55,40
55.1,34
55.2,29
55.3,32
55.4,32
55.5,38
55.6,32
55.7,36
55.8,30
55.9,39
56,47
56.1,37
56.2,38
56.3,40
56.4,36
56.5,38
56.6,39
56.7,25
56.8,27
56.9,31
57,33
57.1,38
57.2,25
57.3,31
57.4,28
57.5,32
57.6,30
57.7,31
57.8,29
57.9,35
58,23
58.1,32
58.2,26
58.3,25
58.4,41
58.5,32
58.6,28
58.7,26
58.8,34
58.9,23
59,32
59.1,26
59.2,29
59.3,39
59.4,33
59.5,36
59.6,31
59.7,36
59.8,29
59.9,29
60,31
60.1,26
60.2,30
60.3,21
60.4,29
60.5,32
60.6,28
60.7,34
60.8,29
60.9,39
61,26
61.1,31
61.2,25
61.3,24
61.4,25
61.5,28
61.6,37
61.7,18
61.8,40
61.9,25
62,20
62.1,24
62.2,24
62.3,25
62.4,24
62.5,21
62.6,22
62.7,26
62.8,30
62.9,34
63,24
63.1,29
63.2,23
63.3,20
63.4,25
63.5,41
63.6,66
63.7,37
63.8,48
63.9,26
64,28
64.1,32
64.2,24
64.3,32
64.4,26
64.5,29
64.6,33
64.7,32
64.8,26
64.9,24
65,30
65.1,32
65.2,28
65.3,22
65.4,33
65.5,26
65.6,32
65.7,27
65.8,30
65.9,31
66,24
66.1,25
66.2,28
66.3,31
66.4,27
66.5,21
66.6,27
66.7,25
66.8,31
66.9,22
67,29
67.1,27
67.2,32
67.3,21
67.4,21
67.5,18
67.6,25
67.7,31
67.8,31
67.9,31
68,49
68.1,34
68.2,41
68.3,35
68.4,32
68.5,26
68.6,29
68.7,32
68.8,24
68.9,32
69,29
69.1,22
69.2,14
69.3,20
69.4,33
69.5,24
69.6,22
69.7,31
69.8,29
69.9,38
70,20
70.1,30
70.2,27
70.3,33
70.4,25
70.5,32
70.6,33
70.7,17
70.8,25
70.9,19
71,29
71.1,32
71.2,29
71.3,24
71.4,24
71.5,22
71.6,31
71.7,26
71.8,24
71.9,27
72,28
72.1,21
72.2,43
72.3,55
72.4,47
72.5,63
72.6,36
72.7,38
72.8,31
72.9,28
73,20
73.1,19
73.2,37
73.3,26
73.4,32
73.5,38
73.6,23
73.7,35
73.8,19
73.9,27
74,27
74.1,19
74.2,26
74.3,20
74.4,25
74.5,25
74.6,34
74.7,23
74.8,26
74.9,19
75,26
75.1,28
75.2,33
75.3,30
75.4,17
75.5,17
75.6,30
75.7,25
75.8,20
75.9,21
76,26
76.1,28
76.2,26
76.3,31
76.4,35
76.5,31
76.6,32
76.7,18
76.8,26
76.9,17
77,26
77.1,20
77.2,28
77.3,22
77.4,21
77.5,21
77.6,15
77.7,32
77.8,30
77.9,23
78,17
78.1,18
78.2,17
78.3,25
78.4,30
78.5,24
78.6,19
78.7,24
78.8,23
78.9,18
79,28
79.1,26
79.2,33
79.3,20
79.4,21
79.5,18
79.6,23
79.7,23
79.8,18
79.9,27
80,22
80.1,27
80.2,19
80.3,25
80.4,22
80.5,29
80.6,35
80.7,27
80.8,25
80.9,20
81,38
81.1,31
81.2,23
81.3,22
81.4,29
81.5,29
81.6,23
81.7,23
81.8,28
81.9,18
82,30
82.1,28
82.2,33
82.3,16
82.4,16
82.5,19
82.6,22
82.7,21
82.8,30
82.9,23
83,26
83.1,28
83.2,23
83.3,27
83.4,19
83.5,21
83.6,19
83.7,21
83.8,20
83.9,21
84,32
84.1,13
84.2,27
84.3,24
84.4,27
84.5,28
84.6,27
84.7,24
84.8,28
84.9,25
85,25
85.1,18
85.2,21
85.3,23
85.4,24
85.5,29
85.6,26
85.7,29
85.8,23
85.9,10
86,23
86.1,30
86.2,27
86.3,21
86.4,18
86.5,29
86.6,25
86.7,25
86.8,19
86.9,24
87,25
87.1,27
87.2,31
87.3,30
87.4,17
87.5,22
87.6,27
87.7,21
87.8,27
87.9,22
88,30
88.1,18
88.2,30
88.3,28
88.4,48
88.5,74
88.6,65
88.7,45
88.8,58
88.9,42
89,34
89.1,29
89.2,31
89.3,22
89.4,27
89.5,29
89.6,29
89.7,26
89.8,30
89.9,23
90,20
90.1,27
90.2,18
90.3,23
90.4,26
90.5,30
90.6,30
90.7,28
90.8,15
90.9,22
91,36
91.1,19
91.2,32
91.3,25
91.4,23
91.5,25
91.6,27
91.7,29
91.8,28
91.9,30
92,30
92.1,19
92.2,22
92.3,23
92.4,35
92.5,27
92.6,20
92.7,20
92.8,26
92.9,22
93,22
93.1,27
93.2,29
93.3,19
93.4,32
93.5,29
93.6,17
93.7,34
93.8,27
93.9,28
94,23
94.1,31
94.2,24
94.3,20
94.4,32
94.5,21
94.6,21
94.7,19
94.8,23
94.9,16
95,18
95.1,18
95.2,23
95.3,27
95.4,20
95.5,26
95.6,23
95.7,27
95.8,26
95.9,15
96,28
96.1,23
96.2,22
96.3,22
96.4,26
96.5,30
96.6,30
96.7,31
96.8,23
96.9,27
97,29
97.1,24
97.2,23
97.3,18
97.4,24
97.5,21
97.6,25
97.7,23
97.8,28
97.9,24
98,23
98.1,27
98.2,24
98.3,27
98.4,18
98.5,21
98.6,28
98.7,24
98.8,29
98.9,17
99,24
99.1,22
99.2,25
99.3,23
99.4,27
99.5,25
99.6,22
99.7,24
99.8,29
99.9,29
100,13
100.1,34
100.2,29
100.3,24
100.4,21
100.5,30
100.6,42
100.7,43
100.8,28
100.9,27
101,48
101.1,25
101.2,21
101.3,15
101.4,21
101.5,25
101.6,29
101.7,27
101.8,25
101.9,32
102,41
102.1,22
102.2,34
102.3,36
102.4,29
102.5,23
102.6,27
102.7,27
102.8,25
102.9,36
103,22
103.1,34
103.2,21
103.3,27
103.4,32
103.5,31
103.6,26
103.7,39
103.8,29
103.9,24
104,33
104.1,22
104.2,29
104.3,27
104.4,18
104.5,32
104.6,32
104.7,49
104.8,48
104.9,30
105,27
105.1,65
105.2,40
105.3,23
105.4,24
105.5,28
105.6,29
105.7,29
105.8,24
105.9,21
106,23
106.1,21
106.2,28
106.3,33
106.4,16
106.5,29
106.6,29
106.7,25
106.8,19
106.9,28
107,25
107.1,28
107.2,17
107.3,32
107.4,26
107.5,21
107.6,23
107.7,28
107.8,36
107.9,21
108,22
108.1,34
108.2,31
108.3,37
108.4,35
108.5,27
108.6,27
108.7,28
108.8,34
108.9,27
109,29
109.1,26
109.2,30
109.3,22
109.4,25
109.5,23
109.6,33
109.7,25
109.8,23
109.9,32
110,23
110.1,25
110.2,18
110.3,25
110.4,18
110.5,23
110.6,24
110.7,26
110.8,23
110.9,31
111,28
111.1,29
111.2,24
111.3,21
111.4,25
111.5,27
111.6,27
111.7,21
111.8,36
111.9,25
112,27
112.1,30
112.2,30
112.3,25
112.4,23
112.5,31
112.6,24
112.7,35
112.8,24
112.9,34
113,35
113.1,28
113.2,43
113.3,38
113.4,31
113.5,30
113.6,30
113.7,40
113.8,33
113.9,22
114,25
114.1,29
114.2,23
114.3,25
114.4,26
114.5,34
114.6,28
114.7,27
114.8,29
114.9,29
115,27
115.1,28
115.2,22
115.3,24
115.4,32
115.5,27
115.6,27
115.7,31
115.8,24
115.9,32
116,31
116.1,35
116.2,22
116.3,30
116.4,25
116.5,16
116.6,30
116.7,36
116.8,22
116.9,22
117,24
117.1,27
117.2,24
117.3,23
117.4,29
117.5,26
117.6,39
117.7,33
117.8,25
117.9,25
118,24
118.1,28
118.2,27
118.3,23
118.4,32
118.5,26
118.6,35
118.7,36
118.8,24
118.9,23
119,31
119.1,30
119.2,35
119.3,22
119.4,34
119.5,26
119.6,27
119.7,31
119.8,31
119.9,31
120,29