File: KCl.csv
2Theta,Intensity (counts)
25,200
25.1,224
25.2,220
25.3,216
25.4,239
25.5,267
25.6,252
25.7,267
25.8,241
25.9,255
26,213
26.1,218
26.2,192
26.3,222
26.4,179
26.5,178
26.6,182
26.7,183
26.8,175
26.9,191
27,136
27.1,155
27.2,149
27.3,137
27.4,141
27.5,140
27.6,128
27.7,127
27.8,132
27.9,141
28,175
28.1,256
28.2,503
28.3,1182
28.4,1307
28.5,567
28.6,240
28.7,182
28.8,158
28.9,164
29,202
29.1,191
29.2,243
29.3,213
29.4,224
29.5,256
29.6,208
29.7,198
29.8,181
29.9,163
30,144
30.1,126
30.2,120
30.3,120
30.4,103
30.5,92
30.6,115
30.7,104
30.8,95
30.9,96
31,93
31.1,81
31.2,97
31.3,101
31.4,71
31.5,76
31.6,90
31.7,83
31.8,74
31.9,78
32,75
32.1,74
32.2,73
32.3,74
32.4,90
32.5,62
32.6,70
32.7,84
32.8,83
32.9,83
33,70
33.1,82
33.2,62
33.3,78
33.4,81
33.5,82
33.6,77
33.7,83
33.8,93
33.9,75
34,68
34.1,57
34.2,66
34.3,64
34.4,68
34.5,58
34.6,55
34.7,48
34.8,51
34.9,66
35,70
35.1,61
35.2,67
35.3,52
35.4,70
35.5,61
35.6,52
35.7,72
35.8,69
35.9,53
36,61
36.1,65
36.2,58
36.3,92
36.4,69
36.5,68
36.6,63
36.7,60
36.8,68
36.9,67
37,60
37.1,45
37.2,59
37.3,46
37.4,53
37.5,58
37.6,53
37.7,38
37.8,57
37.9,57
38,51
38.1,64
38.2,56
38.3,51
38.4,62
38.5,68
38.6,41
38.7,62
38.8,60
38.9,56
39,49
39.1,55
39.2,55
39.3,62
39.4,55
39.5,41
39.6,50
39.7,49
39.8,67
39.9,48
40,51
40.1,55
40.2,77
40.3,118
40.4,218
40.5,294
40.6,236
40.7,123
40.8,71
40.9,58
41,57
41.1,54
41.2,59
41.3,41
41.4,64
41.5,65
41.6,52
41.7,44
41.8,73
41.9,44
42,68
42.1,42
42.2,47
42.3,51
42.4,59
42.5,62
42.6,41
42.7,55
42.8,59
42.9,65
43,60
43.1,49
43.2,40
43.3,39
43.4,51
43.5,44
43.6,42
43.7,50
43.8,54
43.9,36
44,64
44.1,51
44.2,47
44.3,50
44.4,42
44.5,46
44.6,52
44.7,52
44.8,57
44.9,51
45,44
45.1,56
45.2,37
45.3,51
45.4,43
45.5,50
45.6,44
45.7,43
45.8,52
45.9,45
46,45
46.1,52
46.2,47
46.3,41
46.4,53
46.5,31
46.6,34
46.7,55
46.8,39
46.9,37
47,46
47.1,38
47.2,52
47.3,52
47.4,51
47.5,44
47.6,57
47.7,47
47.8,45
47.9,51
48,46
48.1,34
48.2,43
48.3,38
48.4,53
48.5,49
48.6,34
48.7,41
48.8,40
48.9,41
49,43
49.1,48
49.2,43
49.3,41
49.4,38
49.5,37
49.6,48
49.7,44
49.8,49
49.9,59
50,70
50.1,95
50.2,74
50.3,66
50.4,51
50.5,38
50.6,45
50.7,33
50.8,46
50.9,35
51,35
51.1,45
51.2,36
51.3,30
51.4,47
51.5,50
51.6,44
51.7,38
51.8,31
51.9,44
52,37
52.1,44
52.2,31
52.3,34
52.4,39
52.5,29
52.6,43
52.7,41
52.8,38
52.9,28
53,33
53.1,30
53.2,32
53.3,43
53.4,31
53.5,16
53.6,27
53.7,44
53.8,40
53.9,26
54,30
54.1,29
54.2,34
54.3,32
54.4,32
54.5,30
54.6,30
54.7,32
54.8,39
54.9,23
55,31
55.1,33
55.2,38
55.3,43
55.4,22
55.5,16
55.6,28
55.7,37
55.8,35
55.9,26
56,37
56.1,35
56.2,27
56.3,28
56.4,32
56.5,33
56.6,41
56.7,34
56.8,28
56.9,37
57,20
57.1,28
57.2,26
57.3,28
57.4,35
57.5,20
57.6,28
57.7,19
57.8,32
57.9,31
58,28
58.1,23
58.2,27
58.3,37
58.4,47
58.5,73
58.6,190
58.7,135
58.8,99
58.9,60
59,43
59.1,34
59.2,39
59.3,39
59.4,31
59.5,33
59.6,31
59.7,25
59.8,29
59.9,28
60,31
60.1,44
60.2,38
60.3,24
60.4,30
60.5,39
60.6,33
60.7,40
60.8,32
60.9,32
61,33
61.1,35
61.2,27
61.3,23
61.4,35
61.5,36
61.6,50
61.7,32
61.8,33
61.9,20
62,29
62.1,30
62.2,25
62.3,24
62.4,30
62.5,36
62.6,26
62.7,32
62.8,26
62.9,27
63,41
63.1,37
63.2,42
63.3,34
63.4,31
63.5,28
63.6,29
63.7,31
63.8,38
63.9,30
64,28
64.1,31
64.2,31
64.3,27
64.4,42
64.5,28
64.6,29
64.7,25
64.8,38
64.9,22
65,18
65.1,21
65.2,23
65.3,27
65.4,26
65.5,35
65.6,27
65.7,22
65.8,33
65.9,29
66,28
66.1,36
66.2,73
66.3,71
66.4,152
66.5,80
66.6,88
66.7,36
66.8,36
66.9,27
67,32
67.1,28
67.2,28
67.3,22
67.4,32
67.5,20
67.6,38
67.7,39
67.8,19
67.9,33
68,26
68.1,25
68.2,32
68.3,40
68.4,29
68.5,35
68.6,28
68.7,25
68.8,29
68.9,30
69,31
69.1,40
69.2,23
69.3,30
69.4,40
69.5,38
69.6,27
69.7,29
69.8,31
69.9,31
70,25
70.1,22
70.2,26
70.3,25
70.4,26
70.5,42
70.6,22
70.7,20
70.8,30
70.9,26
71,27
71.1,14
71.2,26
71.3,22
71.4,29
71.5,17
71.6,29
71.7,29
71.8,20
71.9,25
72,30
72.1,23
72.2,35
72.3,29
72.4,19
72.5,23
72.6,25
72.7,25
72.8,21
72.9,19
73,20
73.1,22
73.2,29
73.3,33
73.4,25
73.5,67
73.6,53
73.7,76
73.8,70
73.9,36
74,34
74.1,25
74.2,34
74.3,14
74.4,22
74.5,24
74.6,21
74.7,20
74.8,25
74.9,20
75,25
75.1,23
75.2,17
75.3,24
75.4,27
75.5,24
75.6,34
75.7,44
75.8,28
75.9,27
76,24
76.1,23
76.2,25
76.3,27
76.4,29
76.5,31
76.6,21
76.7,25
76.8,29
76.9,22
77,24
77.1,28
77.2,28
77.3,22
77.4,34
77.5,23
77.6,23
77.7,22
77.8,20
77.9,28
78,16
78.1,20
78.2,19
78.3,27
78.4,27
78.5,23
78.6,22
78.7,27
78.8,24
78.9,26
79,26
79.1,31
79.2,26
79.3,26
79.4,26
79.5,24
79.6,22
79.7,26
79.8,30
79.9,32
80,28
80.1,29
80.2,15
80.3,22
80.4,21
80.5,31
80.6,25
80.7,22
80.8,29
80.9,27
81,21
81.1,28
81.2,20
81.3,37
81.4,20
81.5,23
81.6,31
81.7,21
81.8,32
81.9,22
82,21
82.1,29
82.2,25
82.3,22
82.4,18
82.5,28
82.6,22
82.7,28
82.8,20
82.9,22
83,26
83.1,30
83.2,23
83.3,30
83.4,32
83.5,24
83.6,21
83.7,22
83.8,20
83.9,21
84,27
84.1,27
84.2,22
84.3,26
84.4,33
84.5,25
84.6,15
84.7,20
84.8,28
84.9,23
85,32
85.1,24
85.2,21
85.3,17
85.4,28
85.5,33
85.6,23
85.7,29
85.8,23
85.9,21
86,23
86.1,17
86.2,24
86.3,22
86.4,28
86.5,28
86.6,21
86.7,24
86.8,22
86.9,30
87,36
87.1,16
87.2,25
87.3,43
87.4,25
87.5,32
87.6,41
87.7,41
87.8,25
87.9,29
88,27
88.1,26
88.2,21
88.3,24
88.4,28
88.5,22
88.6,22
88.7,29
88.8,19
88.9,22
89,21
89.1,23
89.2,27
89.3,24
89.4,19
89.5,28
89.6,23
89.7,30
89.8,22
89.9,25
90,25
90.1,26
90.2,18
90.3,24
90.4,20
90.5,21
90.6,29
90.7,13
90.8,25
90.9,20
91,23
91.1,18
91.2,17
91.3,17
91.4,27
91.5,32
91.6,18
91.7,27
91.8,18
91.9,28
92,15
92.1,21
92.2,23
92.3,29
92.4,24
92.5,29
92.6,24
92.7,32
92.8,25
92.9,16
93,30
93.1,20
93.2,18
93.3,22
93.4,25
93.5,19
93.6,21
93.7,26
93.8,25
93.9,23
94,22
94.1,18
94.2,26
94.3,24
94.4,44
94.5,58
94.6,43
94.7,51
94.8,44
94.9,43
95,28
95.1,24
95.2,22
95.3,35
95.4,31
95.5,26
95.6,35
95.7,19
95.8,26
95.9,35
96,26
96.1,21
96.2,30
96.3,25
96.4,22
96.5,22
96.6,39
96.7,31
96.8,31
96.9,29
97,28
97.1,29
97.2,28
97.3,31
97.4,28
97.5,25
97.6,37
97.7,26
97.8,22
97.9,12
98,29
98.1,29
98.2,24
98.3,19
98.4,22
98.5,33
98.6,37
98.7,32
98.8,18
98.9,15
99,31
99.1,24
99.2,34
99.3,24
99.4,22
99.5,23
99.6,36
99.7,22
99.8,19
99.9,26
100,30
100.1,26
100.2,30
100.3,18
100.4,27
100.5,22
100.6,28
100.7,31
100.8,22
100.9,25
101,29
101.1,22
101.2,28
101.3,43
101.4,56
101.5,43
101.6,36
101.7,42
101.8,25
101.9,36
102,30
102.1,22
102.2,28
102.3,35
102.4,28
102.5,33
102.6,38
102.7,26
102.8,25
102.9,23
103,30
103.1,22
103.2,29
103.3,33
103.4,32
103.5,23
103.6,23
103.7,25
103.8,25
103.9,22
104,22
104.1,23
104.2,21
104.3,30
104.4,29
104.5,32
104.6,32
104.7,40
104.8,33
104.9,29
105,30
105.1,30
105.2,32
105.3,19
105.4,32
105.5,32
105.6,24
105.7,32
105.8,19
105.9,22
106,27
106.1,23
106.2,28
106.3,27
106.4,30
106.5,28
106.6,29
106.7,30
106.8,26
106.9,29
107,21
107.1,25
107.2,25
107.3,31
107.4,22
107.5,25
107.6,24
107.7,22
107.8,30
107.9,32
108,21
108.1,32
108.2,37
108.3,30
108.4,35
108.5,55
108.6,35
108.7,34
108.8,30
108.9,37
109,29
109.1,29
109.2,36
109.3,36
109.4,27
109.5,23
109.6,27
109.7,28
109.8,26
109.9,27
110,29
110.1,23
110.2,32
110.3,37
110.4,31
110.5,25
110.6,31
110.7,34
110.8,24
110.9,36
111,27
111.1,29
111.2,33
111.3,36
111.4,27
111.5,30
111.6,34
111.7,34
111.8,33
111.9,29
112,26
112.1,30
112.2,34
112.3,28
112.4,27
112.5,23
112.6,25
112.7,21
112.8,26
112.9,31
113,30
113.1,29
113.2,23
113.3,19
113.4,31
113.5,17
113.6,33
113.7,23
113.8,29
113.9,32
114,36
114.1,30
114.2,27
114.3,37
114.4,27
114.5,23
114.6,21
114.7,28
114.8,33
114.9,25
115,34
115.1,40
115.2,33
115.3,35
115.4,25
115.5,25
115.6,27
115.7,19
115.8,33
115.9,26
116,36
116.1,23
116.2,30
116.3,36
116.4,26
116.5,26
116.6,19
116.7,31
116.8,33
116.9,32
117,37
117.1,26
117.2,24
117.3,28
117.4,16
117.5,22
117.6,36
117.7,27
117.8,31
117.9,32
118,29
118.1,31
118.2,38
118.3,27
118.4,31
118.5,35
118.6,27
118.7,38
118.8,36
118.9,37
119,39
119.1,30
119.2,25
119.3,29
119.4,27
119.5,30
119.6,27
119.7,24
119.8,31
119.9,27
120,27
120.1,17
120.2,24
120.3,47
120.4,34
120.5,39
120.6,40
120.7,23
120.8,31
120.9,29
121,32
121.1,32
121.2,24
121.3,21
121.4,23
121.5,26
121.6,34
121.7,29
121.8,33
121.9,21
122,44
122.1,38
122.2,28
122.3,28
122.4,32
122.5,38
122.6,35
122.7,37
122.8,21
122.9,36
123,38
123.1,40
123.2,33
123.3,31
123.4,39
123.5,31
123.6,33
123.7,30
123.8,44
123.9,48
124,59
124.1,35
124.2,40
124.3,38
124.4,38
124.5,52
124.6,36
124.7,33
124.8,27
124.9,35
125,40
125.1,32
125.2,40
125.3,30
125.4,42
125.5,42
125.6,25
125.7,22
125.8,33
125.9,35
126,27
126.1,27
126.2,34
126.3,26
126.4,23
126.5,41
126.6,38
126.7,34
126.8,32
126.9,33
127,40
127.1,41
127.2,35
127.3,39
127.4,39
127.5,40
127.6,37
127.7,33
127.8,41
127.9,41
128,27
128.1,44
128.2,36
128.3,28
128.4,44
128.5,43
128.6,31
128.7,35
128.8,33
128.9,40
129,42
129.1,37
129.2,30
129.3,33
129.4,28
129.5,35
129.6,34
129.7,33
129.8,38
129.9,46
130,32