File: LiF.csv
2Theta,Intensity (counts)
30,170
30.1,167
30.2,179
30.3,177
30.4,167
30.5,152
30.6,142
30.7,162
30.8,180
30.9,149
31,156
31.1,167
31.2,142
31.3,133
31.4,154
31.5,173
31.6,167
31.7,144
31.8,192
31.9,164
32,188
32.1,185
32.2,182
32.3,182
32.4,197
32.5,177
32.6,177
32.7,166
32.8,163
32.9,137
33,135
33.1,126
33.2,152
33.3,142
33.4,138
33.5,105
33.6,116
33.7,128
33.8,123
33.9,138
34,131
34.1,106
34.2,148
34.3,140
34.4,127
34.5,153
34.6,131
34.7,128
34.8,150
34.9,108
35,124
35.1,123
35.2,113
35.3,109
35.4,113
35.5,126
35.6,117
35.7,94
35.8,116
35.9,107
36,116
36.1,100
36.2,98
36.3,116
36.4,102
36.5,106
36.6,104
36.7,96
36.8,106
36.9,116
37,115
37.1,108
37.2,141
37.3,126
37.4,100
37.5,119
37.6,114
37.7,139
37.8,169
37.9,201
38,310
38.1,562
38.2,945
38.3,1251
38.4,1347
38.5,936
38.6,520
38.7,277
38.8,201
38.9,166
39,165
39.1,168
39.2,160
39.3,158
39.4,187
39.5,184
39.6,152
39.7,152
39.8,182
39.9,178
40,153
40.1,157
40.2,156
40.3,140
40.4,137
40.5,121
40.6,120
40.7,104
40.8,118
40.9,121
41,113
41.1,83
41.2,99
41.3,93
41.4,111
41.5,97
41.6,93
41.7,105
41.8,102
41.9,91
42,82
42.1,92
42.2,92
42.3,87
42.4,97
42.5,97
42.6,65
42.7,94
42.8,100
42.9,77
43,99
43.1,87
43.2,82
43.3,96
43.4,87
43.5,97
43.6,81
43.7,76
43.8,90
43.9,102
44,106
44.1,171
44.2,233
44.3,434
44.4,771
44.5,1245
44.6,1690
44.7,1649
44.8,1138
44.9,673
45,408
45.1,233
45.2,169
45.3,122
45.4,136
45.5,151
45.6,149
45.7,159
45.8,176
45.9,177
46,157
46.1,166
46.2,153
46.3,144
46.4,161
46.5,159
46.6,149
46.7,140
46.8,122
46.9,115
47,113
47.1,118
47.2,100
47.3,96
47.4,96
47.5,109
47.6,68
47.7,79
47.8,99
47.9,69
48,74
48.1,83
48.2,81
48.3,71
48.4,78
48.5,82
48.6,94
48.7,79
48.8,84
48.9,83
49,55
49.1,80
49.2,74
49.3,70
49.4,62
49.5,73
49.6,72
49.7,84
49.8,79
49.9,78
50,77
50.1,75
50.2,78
50.3,76
50.4,78
50.5,90
50.6,89
50.7,67
50.8,72
50.9,85
51,77
51.1,69
51.2,78
51.3,74
51.4,80
51.5,91
51.6,71
51.7,80
51.8,71
51.9,63
52,94
52.1,75
52.2,86
52.3,79
52.4,83
52.5,82
52.6,80
52.7,89
52.8,80
52.9,82
53,76
53.1,57
53.2,70
53.3,71
53.4,84
53.5,63
53.6,81
53.7,74
53.8,64
53.9,64
54,72
54.1,54
54.2,68
54.3,63
54.4,68
54.5,72
54.6,75
54.7,73
54.8,70
54.9,68
55,59
55.1,80
55.2,62
55.3,74
55.4,64
55.5,76
55.6,65
55.7,54
55.8,78
55.9,61
56,77
56.1,62
56.2,83
56.3,49
56.4,76
56.5,59
56.6,75
56.7,81
56.8,79
56.9,63
57,81
57.1,58
57.2,62
57.3,62
57.4,74
57.5,69
57.6,76
57.7,52
57.8,73
57.9,70
58,76
58.1,76
58.2,89
58.3,83
58.4,66
58.5,59
58.6,67
58.7,63
58.8,84
58.9,81
59,81
59.1,84
59.2,82
59.3,69
59.4,79
59.5,87
59.6,69
59.7,79
59.8,62
59.9,72
60,62
60.1,68
60.2,66
60.3,65
60.4,58
60.5,61
60.6,65
60.7,75
60.8,73
60.9,62
61,74
61.1,65
61.2,58
61.3,74
61.4,77
61.5,52
61.6,75
61.7,72
61.8,70
61.9,67
62,71
62.1,63
62.2,82
62.3,78
62.4,73
62.5,73
62.6,68
62.7,68
62.8,64
62.9,74
63,72
63.1,70
63.2,72
63.3,73
63.4,61
63.5,67
63.6,82
63.7,72
63.8,61
63.9,70
64,78
64.1,68
64.2,67
64.3,91
64.4,93
64.5,110
64.6,130
64.7,188
64.8,260
64.9,373
65,523
65.1,754
65.2,813
65.3,678
65.4,422
65.5,202
65.6,136
65.7,103
65.8,90
65.9,105
66,92
66.1,98
66.2,107
66.3,64
66.4,87
66.5,92
66.6,84
66.7,94
66.8,88
66.9,102
67,89
67.1,95
67.2,107
67.3,80
67.4,90
67.5,102
67.6,114
67.7,102
67.8,98
67.9,79
68,94
68.1,85
68.2,123
68.3,70
68.4,87
68.5,89
68.6,85
68.7,85
68.8,80
68.9,82
69,82
69.1,70
69.2,78
69.3,76
69.4,92
69.5,98
69.6,67
69.7,84
69.8,61
69.9,73
70,61
70.1,84
70.2,71
70.3,83
70.4,70
70.5,77
70.6,75
70.7,75
70.8,79
70.9,66
71,68
71.1,79
71.2,57
71.3,72
71.4,76
71.5,70
71.6,72
71.7,67
71.8,69
71.9,55
72,68
72.1,75
72.2,71
72.3,72
72.4,64
72.5,73
72.6,70
72.7,72
72.8,75
72.9,77
73,66
73.1,65
73.2,70
73.3,67
73.4,74
73.5,93
73.6,73
73.7,71
73.8,76
73.9,92
74,61
74.1,57
74.2,62
74.3,64
74.4,71
74.5,51
74.6,60
74.7,71
74.8,60
74.9,87
75,74
75.1,65
75.2,78
75.3,69
75.4,73
75.5,68
75.6,74
75.7,77
75.8,77
75.9,68
76,73
76.1,82
76.2,74
76.3,73
76.4,66
76.5,66
76.6,86
76.7,62
76.8,60
76.9,71
77,83
77.1,60
77.2,73
77.3,68
77.4,74
77.5,49
77.6,68
77.7,66
77.8,98
77.9,119
78,103
78.1,139
78.2,149
78.3,200
78.4,243
78.5,218
78.6,191
78.7,166
78.8,123
78.9,92
79,100
79.1,79
79.2,69
79.3,69
79.4,69
79.5,81
79.6,75
79.7,68
79.8,65
79.9,77
80,85
80.1,68
80.2,70
80.3,66
80.4,82
80.5,95
80.6,64
80.7,70
80.8,76
80.9,90
81,68
81.1,47
81.2,79
81.3,66
81.4,85
81.5,83
81.6,99
81.7,68
81.8,86
81.9,84
82,91
82.1,103
82.2,94
82.3,126
82.4,142
82.5,182
82.6,214
82.7,261
82.8,215
82.9,171
83,123
83.1,117
83.2,95
83.3,69
83.4,75
83.5,67
83.6,81
83.7,56
83.8,81
83.9,93
84,74
84.1,69
84.2,91
84.3,78
84.4,88
84.5,69
84.6,88
84.7,68
84.8,68
84.9,64
85,73
85.1,88
85.2,96
85.3,78
85.4,83
85.5,78
85.6,74
85.7,87
85.8,60
85.9,74
86,81
86.1,89
86.2,90
86.3,83
86.4,89
86.5,79
86.6,88
86.7,86
86.8,60
86.9,75
87,78
87.1,72
87.2,81
87.3,98
87.4,79
87.5,86
87.6,70
87.7,75
87.8,67
87.9,82
88,82
88.1,76
88.2,72
88.3,79
88.4,69
88.5,73
88.6,63
88.7,67
88.8,72
88.9,78
89,80
89.1,93
89.2,87
89.3,101
89.4,75
89.5,79
89.6,86
89.7,84
89.8,59
89.9,82
90,76
90.1,85
90.2,85
90.3,88
90.4,69
90.5,81
90.6,91
90.7,83
90.8,76
90.9,87
91,72
91.1,73
91.2,76
91.3,80
91.4,75
91.5,71
91.6,76
91.7,81
91.8,77
91.9,89
92,78
92.1,79
92.2,90
92.3,78
92.4,65
92.5,69
92.6,75
92.7,81
92.8,87
92.9,79
93,87
93.1,75
93.2,67
93.3,80
93.4,82
93.5,84
93.6,90
93.7,78
93.8,71
93.9,89
94,77
94.1,66
94.2,94
94.3,77
94.4,85
94.5,84
94.6,80
94.7,92
94.8,68
94.9,85
95,86
95.1,77
95.2,72
95.3,83
95.4,100
95.5,98
95.6,102
95.7,81
95.8,97
95.9,80
96,82
96.1,78
96.2,78
96.3,85
96.4,86
96.5,89
96.6,82
96.7,101
96.8,93
96.9,82
97,67
97.1,93
97.2,78
97.3,84
97.4,86
97.5,91
97.6,84
97.7,72
97.8,73
97.9,75
98,83
98.1,96
98.2,94
98.3,78
98.4,80
98.5,76
98.6,99
98.7,88
98.8,84
98.9,93
99,92
99.1,91
99.2,113
99.3,122
99.4,135
99.5,170
99.6,154
99.7,136
99.8,117
99.9,123
100,106
100.1,90
100.2,110
100.3,99
100.4,83
100.5,92
100.6,92
100.7,107
100.8,88
100.9,89
101,80
101.1,100
101.2,84
101.3,98
101.4,66
101.5,88
101.6,95
101.7,86
101.8,94
101.9,98
102,88
102.1,86
102.2,106
102.3,88
102.4,96
102.5,80
102.6,93
102.7,97
102.8,89
102.9,81
103,86
103.1,83
103.2,74
103.3,83
103.4,91
103.5,98
103.6,99
103.7,80
103.8,93
103.9,96
104,85
104.1,97
104.2,74
104.3,90
104.4,98
104.5,92
104.6,95
104.7,86
104.8,100
104.9,88
105,87
105.1,91
105.2,99
105.3,96
105.4,76
105.5,87
105.6,103
105.7,88
105.8,98
105.9,99
106,97
106.1,104
106.2,97
106.3,95
106.4,92
106.5,112
106.6,86
106.7,112
106.8,98
106.9,109
107,113
107.1,82
107.2,113
107.3,100
107.4,118
107.5,89
107.6,106
107.7,87
107.8,115
107.9,81
108,91
108.1,94
108.2,84
108.3,94
108.4,99
108.5,115
108.6,96
108.7,85
108.8,101
108.9,111
109,95
109.1,101
109.2,93
109.3,87
109.4,87
109.5,109
109.6,110
109.7,107
109.8,108
109.9,86
110,84
110.1,83
110.2,98
110.3,104
110.4,104
110.5,104
110.6,93
110.7,98
110.8,103
110.9,100
111,105
111.1,102
111.2,99
111.3,100
111.4,108
111.5,111
111.6,98
111.7,98
111.8,97
111.9,125
112,113
112.1,105
112.2,115
112.3,109
112.4,104
112.5,147
112.6,143
112.7,149
112.8,154
112.9,154
113,144
113.1,136
113.2,134
113.3,124
113.4,113
113.5,116
113.6,105
113.7,109
113.8,97
113.9,119
114,109
114.1,93
114.2,104
114.3,125
114.4,131
114.5,123
114.6,120
114.7,127
114.8,100
114.9,116
115,119
115.1,100
115.2,120
115.3,116
115.4,113
115.5,110
115.6,121
115.7,121
115.8,108
115.9,115
116,91
116.1,109
116.2,133
116.3,109
116.4,101
116.5,131
116.6,128
116.7,131
116.8,135
116.9,157
117,183
117.1,203
117.2,243
117.3,250
117.4,244
117.5,272
117.6,218
117.7,223
117.8,244
117.9,206
118,168
118.1,146
118.2,111
118.3,135
118.4,134
118.5,120
118.6,113
118.7,113
118.8,136
118.9,113
119,125
119.1,112
119.2,138
119.3,124
119.4,113
119.5,126
119.6,133
119.7,134
119.8,105
119.9,138
120,128