File: W.csv
2Theta,Intensity (counts)
25,124
25.1,116
25.2,124
25.3,148
25.4,121
25.5,119
25.6,120
25.7,130
25.8,112
25.9,117
26,117
26.1,108
26.2,116
26.3,113
26.4,130
26.5,137
26.6,117
26.7,124
26.8,110
26.9,125
27,107
27.1,103
27.2,109
27.3,112
27.4,113
27.5,99
27.6,103
27.7,93
27.8,108
27.9,109
28,115
28.1,93
28.2,102
28.3,79
28.4,97
28.5,100
28.6,101
28.7,84
28.8,82
28.9,81
29,88
29.1,75
29.2,81
29.3,86
29.4,71
29.5,64
29.6,79
29.7,69
29.8,76
29.9,67
30,71
30.1,70
30.2,65
30.3,75
30.4,64
30.5,60
30.6,60
30.7,67
30.8,72
30.9,66
31,54
31.1,63
31.2,54
31.3,65
31.4,66
31.5,55
31.6,61
31.7,57
31.8,59
31.9,61
32,53
32.1,76
32.2,63
32.3,57
32.4,47
32.5,54
32.6,57
32.7,51
32.8,58
32.9,59
33,51
33.1,47
33.2,52
33.3,43
33.4,53
33.5,52
33.6,50
33.7,48
33.8,52
33.9,60
34,41
34.1,53
34.2,46
34.3,48
34.4,56
34.5,57
34.6,60
34.7,50
34.8,43
34.9,40
35,49
35.1,39
35.2,49
35.3,59
35.4,43
35.5,52
35.6,54
35.7,40
35.8,47
35.9,59
36,51
36.1,53
36.2,49
36.3,54
36.4,44
36.5,53
36.6,62
36.7,61
36.8,62
36.9,51
37,48
37.1,58
37.2,50
37.3,43
37.4,37
37.5,52
37.6,64
37.7,54
37.8,43
37.9,38
38,49
38.1,45
38.2,48
38.3,38
38.4,50
38.5,44
38.6,46
38.7,55
38.8,44
38.9,43
39,54
39.1,37
39.2,50
39.3,54
39.4,71
39.5,91
39.6,122
39.7,123
39.8,106
39.9,74
40,105
40.1,97
40.2,213
40.3,377
40.4,264
40.5,143
40.6,71
40.7,63
40.8,53
40.9,59
41,56
41.1,67
41.2,60
41.3,46
41.4,56
41.5,52
41.6,78
41.7,75
41.8,56
41.9,69
42,61
42.1,72
42.2,53
42.3,51
42.4,60
42.5,50
42.6,50
42.7,50
42.8,58
42.9,54
43,45
43.1,55
43.2,41
43.3,50
43.4,41
43.5,35
43.6,48
43.7,53
43.8,40
43.9,32
44,31
44.1,46
44.2,42
44.3,39
44.4,38
44.5,35
44.6,40
44.7,37
44.8,43
44.9,36
45,29
45.1,41
45.2,50
45.3,47
45.4,44
45.5,38
45.6,40
45.7,33
45.8,30
45.9,31
46,29
46.1,41
46.2,42
46.3,36
46.4,38
46.5,46
46.6,36
46.7,45
46.8,34
46.9,41
47,45
47.1,48
47.2,36
47.3,37
47.4,31
47.5,38
47.6,37
47.7,39
47.8,35
47.9,40
48,44
48.1,42
48.2,43
48.3,30
48.4,33
48.5,30
48.6,46
48.7,38
48.8,40
48.9,27
49,39
49.1,30
49.2,27
49.3,29
49.4,40
49.5,28
49.6,31
49.7,35
49.8,32
49.9,29
50,35
50.1,43
50.2,26
50.3,36
50.4,35
50.5,33
50.6,27
50.7,41
50.8,28
50.9,43
51,33
51.1,29
51.2,31
51.3,38
51.4,34
51.5,36
51.6,30
51.7,40
51.8,35
51.9,37
52,28
52.1,26
52.2,33
52.3,35
52.4,36
52.5,25
52.6,29
52.7,36
52.8,27
52.9,37
53,38
53.1,31
53.2,32
53.3,41
53.4,44
53.5,48
53.6,31
53.7,36
53.8,26
53.9,37
54,35
54.1,34
54.2,40
54.3,40
54.4,42
54.5,31
54.6,36
54.7,33
54.8,38
54.9,29
55,37
55.1,32
55.2,35
55.3,34
55.4,28
55.5,32
55.6,27
55.7,38
55.8,41
55.9,24
56,29
56.1,36
56.2,28
56.3,36
56.4,31
56.5,33
56.6,28
56.7,34
56.8,28
56.9,36
57,25
57.1,33
57.2,30
57.3,42
57.4,35
57.5,43
57.6,62
57.7,41
57.8,52
57.9,60
58,69
58.1,77
58.2,78
58.3,81
58.4,77
58.5,56
58.6,38
58.7,33
58.8,36
58.9,36
59,39
59.1,24
59.2,28
59.3,32
59.4,37
59.5,38
59.6,19
59.7,35
59.8,38
59.9,28
60,35
60.1,26
60.2,25
60.3,28
60.4,28
60.5,30
60.6,35
60.7,33
60.8,30
60.9,25
61,34
61.1,24
61.2,21
61.3,24
61.4,29
61.5,29
61.6,29
61.7,27
61.8,27
61.9,21
62,27
62.1,27
62.2,24
62.3,23
62.4,32
62.5,33
62.6,18
62.7,23
62.8,29
62.9,35
63,35
63.1,17
63.2,27
63.3,27
63.4,23
63.5,24
63.6,38
63.7,27
63.8,33
63.9,24
64,21
64.1,36
64.2,28
64.3,22
64.4,29
64.5,30
64.6,26
64.7,30
64.8,18
64.9,32
65,21
65.1,22
65.2,39
65.3,30
65.4,23
65.5,29
65.6,26
65.7,26
65.8,25
65.9,31
66,32
66.1,27
66.2,22
66.3,29
66.4,23
66.5,31
66.6,20
66.7,29
66.8,23
66.9,17
67,22
67.1,14
67.2,33
67.3,28
67.4,31
67.5,21
67.6,35
67.7,19
67.8,21
67.9,21
68,23
68.1,32
68.2,26
68.3,31
68.4,20
68.5,27
68.6,32
68.7,26
68.8,20
68.9,24
69,26
69.1,27
69.2,25
69.3,23
69.4,31
69.5,32
69.6,31
69.7,35
69.8,32
69.9,27
70,27
70.1,26
70.2,25
70.3,30
70.4,31
70.5,19
70.6,23
70.7,32
70.8,30
70.9,22
71,28
71.1,23
71.2,24
71.3,26
71.4,31
71.5,15
71.6,25
71.7,23
71.8,22
71.9,23
72,23
72.1,25
72.2,29
72.3,23
72.4,31
72.5,29
72.6,56
72.7,57
72.8,83
72.9,128
73,145
73.1,210
73.2,183
73.3,189
73.4,98
73.5,94
73.6,26
73.7,34
73.8,42
73.9,28
74,15
74.1,24
74.2,28
74.3,29
74.4,31
74.5,31
74.6,26
74.7,45
74.8,32
74.9,22
75,32
75.1,30
75.2,40
75.3,40
75.4,24
75.5,38
75.6,44
75.7,35
75.8,36
75.9,36
76,28
76.1,48
76.2,36
76.3,35
76.4,25
76.5,38
76.6,36
76.7,35
76.8,37
76.9,36
77,30
77.1,31
77.2,32
77.3,34
77.4,36
77.5,15
77.6,24
77.7,26
77.8,39
77.9,37
78,32
78.1,31
78.2,25
78.3,22
78.4,34
78.5,26
78.6,22
78.7,28
78.8,23
78.9,29
79,28
79.1,31
79.2,29
79.3,34
79.4,25
79.5,24
79.6,30
79.7,23
79.8,19
79.9,31
80,41
80.1,20
80.2,19
80.3,23
80.4,33
80.5,32
80.6,23
80.7,23
80.8,20
80.9,29
81,24
81.1,10
81.2,25
81.3,24
81.4,27
81.5,29
81.6,14
81.7,33
81.8,18
81.9,29
82,25
82.1,19
82.2,18
82.3,26
82.4,23
82.5,22
82.6,19
82.7,25
82.8,30
82.9,22
83,30
83.1,26
83.2,31
83.3,24
83.4,29
83.5,25
83.6,24
83.7,21
83.8,23
83.9,26
84,24
84.1,28
84.2,20
84.3,33
84.4,34
84.5,15
84.6,22
84.7,23
84.8,24
84.9,23
85,30
85.1,31
85.2,24
85.3,19
85.4,27
85.5,27
85.6,22
85.7,17
85.8,21
85.9,25
86,24
86.1,31
86.2,19
86.3,22
86.4,45
86.5,32
86.6,54
86.7,55
86.8,66
86.9,86
87,132
87.1,57
87.2,59
87.3,42
87.4,31
87.5,32
87.6,34
87.7,25
87.8,29
87.9,18
88,29
88.1,31
88.2,31
88.3,26
88.4,27
88.5,26
88.6,27
88.7,28
88.8,33
88.9,23
89,29
89.1,17
89.2,31
89.3,28
89.4,31
89.5,23
89.6,20
89.7,29
89.8,24
89.9,28
90,25
90.1,24
90.2,34
90.3,23
90.4,21
90.5,31
90.6,34
90.7,27
90.8,30
90.9,35
91,25
91.1,29
91.2,25
91.3,31
91.4,30
91.5,29
91.6,23
91.7,34
91.8,29
91.9,28
92,28
92.1,27
92.2,26
92.3,36
92.4,22
92.5,24
92.6,33
92.7,29
92.8,20
92.9,25
93,22
93.1,34
93.2,27
93.3,23
93.4,34
93.5,36
93.6,18
93.7,23
93.8,25
93.9,34
94,28
94.1,21
94.2,29
94.3,34
94.4,22
94.5,23
94.6,24
94.7,23
94.8,26
94.9,26
95,25
95.1,23
95.2,23
95.3,30
95.4,24
95.5,32
95.6,24
95.7,29
95.8,26
95.9,25
96,20
96.1,38
96.2,23
96.3,27
96.4,30
96.5,44
96.6,16
96.7,28
96.8,24
96.9,21
97,38
97.1,24
97.2,27
97.3,27
97.4,20
97.5,23
97.6,25
97.7,40
97.8,24
97.9,25
98,29
98.1,31
98.2,30
98.3,33
98.4,23
98.5,22
98.6,28
98.7,17
98.8,33
98.9,29
99,33
99.1,32
99.2,23
99.3,19
99.4,34
99.5,24
99.6,37
99.7,42
99.8,28
99.9,35
100,28
100.1,32
100.2,52
100.3,71
100.4,115
100.5,108
100.6,117
100.7,144
100.8,115
100.9,113
101,80
101.1,47
101.2,39
101.3,34
101.4,24
101.5,42
101.6,26
101.7,30
101.8,31
101.9,26
102,32
102.1,30
102.2,25
102.3,27
102.4,27
102.5,23
102.6,29
102.7,34
102.8,30
102.9,41
103,36
103.1,22
103.2,27
103.3,19
103.4,27
103.5,36
103.6,24
103.7,21
103.8,32
103.9,24
104,29
104.1,29
104.2,33
104.3,29
104.4,16
104.5,30
104.6,36
104.7,21
104.8,32
104.9,31
105,28
105.1,31
105.2,32
105.3,26
105.4,32
105.5,36
105.6,27
105.7,25
105.8,23
105.9,28
106,36
106.1,30
106.2,27
106.3,35
106.4,41
106.5,30
106.6,30
106.7,28
106.8,21
106.9,30
107,22
107.1,25
107.2,31
107.3,35
107.4,28
107.5,25
107.6,33
107.7,32
107.8,33
107.9,31
108,27
108.1,27
108.2,39
108.3,42
108.4,30
108.5,19
108.6,26
108.7,38
108.8,25
108.9,26
109,21
109.1,32
109.2,28
109.3,30
109.4,25
109.5,24
109.6,43
109.7,30
109.8,28
109.9,42
110,20
110.1,24
110.2,26
110.3,37
110.4,22
110.5,22
110.6,31
110.7,29
110.8,33
110.9,20
111,23
111.1,19
111.2,26
111.3,25
111.4,29
111.5,27
111.6,28
111.7,22
111.8,28
111.9,24
112,34
112.1,26
112.2,26
112.3,31
112.4,32
112.5,17
112.6,28
112.7,32
112.8,33
112.9,29
113,28
113.1,23
113.2,24
113.3,24
113.4,27
113.5,27
113.6,30
113.7,27
113.8,27
113.9,22
114,22
114.1,34
114.2,28
114.3,27
114.4,25
114.5,49
114.6,45
114.7,65
114.8,82
114.9,109
115,53
115.1,39
115.2,51
115.3,53
115.4,46
115.5,40
115.6,34
115.7,34
115.8,33
115.9,35
116,33
116.1,32
116.2,34
116.3,43
116.4,30
116.5,30
116.6,30
116.7,41
116.8,25
116.9,37
117,20
117.1,22
117.2,20
117.3,37
117.4,33
117.5,25
117.6,29
117.7,26
117.8,40
117.9,30
118,30
118.1,26
118.2,29
118.3,34
118.4,33
118.5,34
118.6,36
118.7,33
118.8,23
118.9,37
119,30
119.1,34
119.2,29
119.3,32
119.4,34
119.5,29
119.6,25
119.7,21
119.8,35
119.9,24
120,36
120.1,37
120.2,29
120.3,35
120.4,26
120.5,34
120.6,27
120.7,30
120.8,36
120.9,33
121,34
121.1,30
121.2,33
121.3,28
121.4,30
121.5,32
121.6,41
121.7,40
121.8,36
121.9,34
122,24
122.1,29
122.2,34
122.3,33
122.4,25
122.5,35
122.6,43
122.7,26
122.8,33
122.9,32
123,36
123.1,32
123.2,34
123.3,29
123.4,40
123.5,25
123.6,25
123.7,36
123.8,27
123.9,37
124,40
124.1,41
124.2,34
124.3,32
124.4,31
124.5,35
124.6,23
124.7,25
124.8,32
124.9,27
125,29
125.1,33
125.2,33
125.3,41
125.4,30
125.5,32
125.6,31
125.7,40
125.8,29
125.9,36
126,38
126.1,40
126.2,30
126.3,38
126.4,30
126.5,35
126.6,38
126.7,33
126.8,32
126.9,43
127,31
127.1,36
127.2,28
127.3,25
127.4,28
127.5,31
127.6,29
127.7,35
127.8,39
127.9,34
128,35
128.1,19
128.2,26
128.3,29
128.4,27
128.5,39
128.6,43
128.7,35
128.8,38
128.9,40
129,34
129.1,41
129.2,43
129.3,27
129.4,49
129.5,33
129.6,43
129.7,37
129.8,45
129.9,35
130,37
130.1,38
130.2,45
130.3,39
130.4,45
130.5,40
130.6,61
130.7,71
130.8,120
130.9,220
131,221
131.1,363
131.2,222
131.3,135
131.4,114
131.5,151
131.6,195
131.7,227
131.8,196
131.9,101
132,61
132.1,70
132.2,51
132.3,31
132.4,41
132.5,37
132.6,27
132.7,38
132.8,35
132.9,32
133,40
133.1,42
133.2,32
133.3,38
133.4,37
133.5,32
133.6,32
133.7,38
133.8,40
133.9,36
134,45
134.1,44
134.2,48
134.3,38
134.4,38
134.5,25
134.6,36
134.7,34
134.8,38
134.9,51
135,45